SpectraSuite Datei
++++++++++++++++++++++++++++++++++++
Datum: Thu Sep 19 16:26:36 CEST 2024
Benutzer: Student
Dark-Spektrum vorhanden: Nein
Referenz-Spektrum vorhanden: Nein
Zahl der probierten Teilspektren: 1
Spektrometer: USB2+H15728
Integrationszeit (usec): 4000000 (USB2+H15728)
Spektren Durchschnitt berechnet: 150 (USB2+H15728)
Boxcar Glättung: 0 (USB2+H15728)
Dunkelstromkorrektur: Nein (USB2+H15728)
Puls/Lampe aktiviert: Nein (USB2+H15728)
Correct for Detector Non-linearity: Nein (USB2+H15728)
Streulichtkorrektur: Nein (USB2+H15728)
Anzahl Pixel in verarbeitetem Spektrum: 2048
>>>>>Begin Processed Spectral Data<<<<<
0,00	973,10
1,00	973,10
2,00	973,10
3,00	939,15
4,00	1424,78
5,00	1370,99
6,00	1289,68
7,00	1349,47
8,00	1730,81
9,00	1472,03
10,00	1472,09
11,00	1774,25
12,00	1385,68
13,00	2424,53
14,00	1386,22
15,00	1558,52
16,00	1505,14
17,00	1935,76
18,00	1514,51
19,00	2119,75
20,00	1524,64
21,00	1555,43
22,00	1701,09
23,00	1941,19
24,00	1577,99
25,00	1751,03
26,00	1855,75
27,00	2172,86
28,00	1773,61
29,00	1769,05
30,00	1945,36
31,00	1850,35
32,00	2523,49
33,00	1794,80
34,00	1962,09
35,00	1978,31
36,00	1935,34
37,00	1659,61
38,00	1860,15
39,00	2519,32
40,00	1708,04
41,00	2227,04
42,00	1858,87
43,00	2093,02
44,00	1739,77
45,00	1759,58
46,00	1646,13
47,00	2063,42
48,00	1766,59
49,00	2376,95
50,00	1830,47
51,00	2010,32
52,00	1787,79
53,00	2439,88
54,00	1876,61
55,00	1778,74
56,00	2252,09
57,00	1871,32
58,00	1844,65
59,00	1886,28
60,00	1545,60
61,00	1847,46
62,00	1732,50
63,00	1637,20
64,00	1719,89
65,00	1601,25
66,00	1727,85
67,00	1672,70
68,00	1748,13
69,00	1682,42
70,00	3896,79
71,00	1937,76
72,00	1728,64
73,00	1704,88
74,00	1720,87
75,00	1638,34
76,00	1613,39
77,00	1879,47
78,00	1743,67
79,00	1769,74
80,00	1751,56
81,00	1551,96
82,00	1933,66
83,00	1558,92
84,00	2498,97
85,00	1929,26
86,00	2699,20
87,00	2503,06
88,00	1611,80
89,00	1529,77
90,00	1727,78
91,00	2304,29
92,00	1845,23
93,00	2008,49
94,00	1643,13
95,00	1585,01
96,00	1650,22
97,00	3527,61
98,00	1750,69
99,00	1655,69
100,00	1882,82
101,00	2051,90
102,00	1667,02
103,00	1704,32
104,00	1699,20
105,00	2104,53
106,00	1914,21
107,00	1977,35
108,00	1985,51
109,00	1775,78
110,00	2511,89
111,00	2083,33
112,00	1728,27
113,00	1988,71
114,00	1704,39
115,00	1716,88
116,00	1754,79
117,00	1654,09
118,00	1770,21
119,00	2599,90
120,00	1768,59
121,00	1651,98
122,00	1858,31
123,00	1606,70
124,00	1649,42
125,00	1663,29
126,00	1727,92
127,00	1946,62
128,00	1766,87
129,00	1964,01
130,00	1843,59
131,00	2048,81
132,00	1683,75
133,00	2156,07
134,00	1838,69
135,00	1719,69
136,00	1631,21
137,00	2043,49
138,00	2485,13
139,00	1942,74
140,00	1886,39
141,00	2221,67
142,00	1824,85
143,00	1643,63
144,00	1832,26
145,00	1730,05
146,00	1802,29
147,00	2339,65
148,00	3621,98
149,00	2140,39
150,00	1617,14
151,00	1998,44
152,00	1655,49
153,00	1701,57
154,00	1739,77
155,00	1625,38
156,00	2076,79
157,00	1725,44
158,00	1923,25
159,00	2132,03
160,00	2096,21
161,00	2242,73
162,00	1617,58
163,00	1731,03
164,00	1628,33
165,00	1611,63
166,00	1734,15
167,00	1947,45
168,00	1603,28
169,00	1664,00
170,00	1745,74
171,00	1542,90
172,00	2136,82
173,00	1545,00
174,00	1719,65
175,00	1763,95
176,00	1726,63
177,00	1726,41
178,00	1925,17
179,00	1655,91
180,00	1944,44
181,00	1690,77
182,00	1632,54
183,00	2605,09
184,00	1621,32
185,00	1601,11
186,00	1563,48
187,00	1746,27
188,00	2108,10
189,00	1732,75
190,00	1560,48
191,00	1626,52
192,00	1915,59
193,00	1621,07
194,00	1775,73
195,00	1988,21
196,00	2057,33
197,00	1859,18
198,00	2496,79
199,00	1689,35
200,00	1563,37
201,00	2049,95
202,00	1869,59
203,00	1841,74
204,00	1795,47
205,00	1917,73
206,00	1734,20
207,00	1799,01
208,00	1870,57
209,00	1812,37
210,00	1990,64
211,00	2038,39
212,00	1604,22
213,00	1868,78
214,00	1937,07
215,00	1828,52
216,00	1765,68
217,00	1809,56
218,00	2213,74
219,00	1707,59
220,00	2415,34
221,00	1891,84
222,00	2041,65
223,00	1805,27
224,00	1828,47
225,00	1559,81
226,00	1839,05
227,00	1626,27
228,00	1702,41
229,00	1827,91
230,00	1670,52
231,00	1975,16
232,00	1906,55
233,00	1775,09
234,00	1856,58
235,00	1838,63
236,00	2441,27
237,00	1806,82
238,00	1639,92
239,00	1650,42
240,00	1939,21
241,00	2049,62
242,00	1701,18
243,00	2056,22
244,00	1772,14
245,00	1606,78
246,00	1611,83
247,00	1795,86
248,00	1964,75
249,00	2101,85
250,00	2158,22
251,00	1763,73
252,00	2066,80
253,00	1850,57
254,00	2024,97
255,00	1623,46
256,00	1907,21
257,00	1839,36
258,00	1736,72
259,00	1746,02
260,00	1587,18
261,00	1766,17
262,00	1538,00
263,00	1607,85
264,00	1860,30
265,00	1804,94
266,00	1696,83
267,00	1723,49
268,00	1937,62
269,00	1857,68
270,00	1803,63
271,00	2052,04
272,00	1946,08
273,00	1751,73
274,00	1719,53
275,00	1795,50
276,00	1640,00
277,00	1832,58
278,00	1749,64
279,00	1949,85
280,00	1653,49
281,00	1794,49
282,00	1610,82
283,00	1884,63
284,00	1792,07
285,00	1826,90
286,00	1976,89
287,00	1790,09
288,00	1577,18
289,00	1717,95
290,00	2090,68
291,00	1656,10
292,00	2032,88
293,00	1733,92
294,00	1884,93
295,00	1848,06
296,00	1592,47
297,00	1618,14
298,00	1835,74
299,00	1827,72
300,00	1826,66
301,00	1888,67
302,00	1736,79
303,00	2009,07
304,00	1683,28
305,00	2014,08
306,00	1790,34
307,00	1634,16
308,00	1789,60
309,00	1804,72
310,00	1751,94
311,00	1643,79
312,00	1786,62
313,00	2219,83
314,00	1979,64
315,00	1645,38
316,00	1810,19
317,00	1580,69
318,00	1600,12
319,00	1852,38
320,00	1714,63
321,00	1651,92
322,00	1593,02
323,00	2117,69
324,00	1766,62
325,00	2032,99
326,00	1607,78
327,00	1784,22
328,00	1933,92
329,00	1984,13
330,00	1732,17
331,00	1695,23
332,00	1622,49
333,00	1935,23
334,00	1762,94
335,00	1810,40
336,00	1907,15
337,00	1764,23
338,00	2051,56
339,00	1614,97
340,00	1594,42
341,00	1669,99
342,00	1609,41
343,00	2200,07
344,00	2528,68
345,00	1705,92
346,00	1583,93
347,00	1934,94
348,00	1531,99
349,00	2270,44
350,00	1759,66
351,00	1572,06
352,00	2471,32
353,00	1981,42
354,00	1536,56
355,00	1707,42
356,00	1810,51
357,00	2091,57
358,00	1611,24
359,00	1673,19
360,00	1832,94
361,00	1733,78
362,00	2119,54
363,00	1918,08
364,00	2122,96
365,00	1740,61
366,00	1832,05
367,00	1655,90
368,00	1696,64
369,00	1680,25
370,00	1584,85
371,00	1597,15
372,00	2252,24
373,00	1660,02
374,00	1747,93
375,00	1775,36
376,00	1597,70
377,00	4167,89
378,00	1794,72
379,00	1653,25
380,00	1609,18
381,00	2485,66
382,00	1976,24
383,00	1704,32
384,00	1629,78
385,00	1602,11
386,00	1828,55
387,00	1804,08
388,00	1879,75
389,00	2147,63
390,00	1936,06
391,00	1796,97
392,00	1626,95
393,00	1793,72
394,00	1794,82
395,00	1712,41
396,00	1917,83
397,00	1649,30
398,00	1928,99
399,00	1693,16
400,00	1969,55
401,00	1649,75
402,00	1731,45
403,00	1700,20
404,00	1824,70
405,00	1948,51
406,00	1643,81
407,00	2024,88
408,00	1708,06
409,00	2102,58
410,00	1880,42
411,00	1709,89
412,00	1594,62
413,00	1584,20
414,00	2386,78
415,00	1939,23
416,00	2159,82
417,00	1719,59
418,00	1659,11
419,00	1727,78
420,00	1946,98
421,00	1743,37
422,00	1929,44
423,00	1616,81
424,00	1593,80
425,00	1612,29
426,00	1586,87
427,00	1705,58
428,00	1680,68
429,00	1582,34
430,00	1598,59
431,00	1696,06
432,00	1645,46
433,00	1579,75
434,00	2065,46
435,00	1949,42
436,00	2265,86
437,00	1812,35
438,00	1745,20
439,00	1701,94
440,00	1849,01
441,00	1704,05
442,00	1958,36
443,00	1669,58
444,00	1655,88
445,00	1690,44
446,00	1932,07
447,00	1710,68
448,00	2206,88
449,00	1728,53
450,00	1546,52
451,00	2325,51
452,00	2147,61
453,00	1711,79
454,00	1931,60
455,00	1669,35
456,00	1760,85
457,00	3029,21
458,00	1710,64
459,00	1664,14
460,00	1636,05
461,00	1579,99
462,00	1576,18
463,00	1726,83
464,00	1782,71
465,00	1580,84
466,00	1839,44
467,00	1797,91
468,00	1653,76
469,00	1892,23
470,00	2160,47
471,00	1807,08
472,00	2237,29
473,00	1594,39
474,00	1592,30
475,00	1870,17
476,00	1607,59
477,00	1646,33
478,00	1969,61
479,00	1827,99
480,00	1793,61
481,00	1516,21
482,00	1766,53
483,00	2237,65
484,00	1733,00
485,00	2168,76
486,00	1561,34
487,00	1718,25
488,00	1901,92
489,00	1645,51
490,00	1904,96
491,00	1934,34
492,00	1797,30
493,00	1609,93
494,00	1806,72
495,00	2176,71
496,00	1850,40
497,00	1649,47
498,00	1797,80
499,00	1499,10
500,00	1534,78
501,00	1620,52
502,00	1863,80
503,00	1762,69
504,00	1813,18
505,00	1910,45
506,00	2077,87
507,00	2195,53
508,00	2097,17
509,00	1575,76
510,00	1707,33
511,00	1942,93
512,00	1787,50
513,00	2074,34
514,00	2792,62
515,00	1696,16
516,00	1761,44
517,00	1684,53
518,00	1712,94
519,00	2178,16
520,00	2131,25
521,00	1541,32
522,00	1879,89
523,00	2490,78
524,00	1933,17
525,00	1600,36
526,00	1626,73
527,00	1739,22
528,00	1878,83
529,00	1871,21
530,00	1752,81
531,00	1759,19
532,00	1520,21
533,00	1892,54
534,00	1667,37
535,00	1885,30
536,00	1965,99
537,00	1899,02
538,00	2158,11
539,00	1879,61
540,00	1610,57
541,00	2008,26
542,00	1592,89
543,00	1847,65
544,00	1930,40
545,00	1716,16
546,00	1581,66
547,00	2033,64
548,00	1747,57
549,00	1561,82
550,00	1722,67
551,00	1762,89
552,00	2730,59
553,00	2035,27
554,00	1904,46
555,00	2041,37
556,00	1658,50
557,00	1853,19
558,00	1570,92
559,00	1691,19
560,00	2150,95
561,00	2199,43
562,00	1990,10
563,00	1709,34
564,00	1823,98
565,00	1905,79
566,00	1772,11
567,00	1934,83
568,00	1839,44
569,00	1719,05
570,00	1834,81
571,00	1852,22
572,00	1606,14
573,00	1763,33
574,00	1698,90
575,00	1897,99
576,00	2084,57
577,00	1849,57
578,00	1601,16
579,00	1586,88
580,00	1764,58
581,00	1866,78
582,00	1674,73
583,00	1638,72
584,00	1558,22
585,00	2044,02
586,00	1638,94
587,00	1767,54
588,00	1646,16
589,00	1712,07
590,00	2006,21
591,00	1595,82
592,00	1875,25
593,00	1830,13
594,00	1683,63
595,00	1773,50
596,00	1950,90
597,00	1853,72
598,00	1532,08
599,00	1830,92
600,00	1793,69
601,00	16355,79
602,00	2602,89
603,00	1852,22
604,00	1790,17
605,00	1828,80
606,00	1782,61
607,00	1713,55
608,00	1788,39
609,00	1855,89
610,00	1759,77
611,00	1583,01
612,00	1922,77
613,00	1656,41
614,00	1944,06
615,00	1802,95
616,00	1882,23
617,00	2141,18
618,00	1868,96
619,00	1571,69
620,00	1685,59
621,00	1838,07
622,00	1614,67
623,00	1808,63
624,00	1581,73
625,00	2517,93
626,00	1614,05
627,00	2066,51
628,00	1739,67
629,00	1928,24
630,00	1690,85
631,00	1608,18
632,00	1882,84
633,00	1620,54
634,00	1779,31
635,00	2134,97
636,00	1833,29
637,00	1704,38
638,00	1620,66
639,00	1752,61
640,00	1837,79
641,00	1764,70
642,00	1906,13
643,00	1754,11
644,00	1618,75
645,00	1786,31
646,00	1580,88
647,00	1620,10
648,00	1599,76
649,00	1735,74
650,00	1724,68
651,00	1720,37
652,00	1833,72
653,00	1713,21
654,00	1697,45
655,00	1645,69
656,00	1971,59
657,00	1751,03
658,00	2024,78
659,00	1929,62
660,00	3351,51
661,00	2097,48
662,00	1826,24
663,00	1880,96
664,00	1960,93
665,00	1720,75
666,00	2178,34
667,00	1654,43
668,00	1568,61
669,00	2005,36
670,00	1908,54
671,00	1821,58
672,00	1707,33
673,00	2051,64
674,00	1881,03
675,00	1679,46
676,00	2181,19
677,00	1800,50
678,00	1687,14
679,00	1820,00
680,00	1730,76
681,00	1689,55
682,00	1899,22
683,00	1749,41
684,00	1739,41
685,00	1936,42
686,00	2033,18
687,00	2354,86
688,00	2184,42
689,00	3286,16
690,00	4830,18
691,00	4836,06
692,00	3770,15
693,00	2944,30
694,00	2322,86
695,00	2529,42
696,00	2101,86
697,00	1846,81
698,00	1895,62
699,00	3160,78
700,00	1882,66
701,00	2132,63
702,00	2187,51
703,00	1805,21
704,00	2214,66
705,00	1882,12
706,00	2072,42
707,00	1876,44
708,00	2134,37
709,00	1793,83
710,00	1734,29
711,00	2043,40
712,00	1824,68
713,00	1820,58
714,00	1827,38
715,00	1781,32
716,00	1994,26
717,00	1927,13
718,00	1777,25
719,00	1723,40
720,00	2123,44
721,00	2051,74
722,00	1937,68
723,00	2781,70
724,00	2350,12
725,00	2293,71
726,00	2061,47
727,00	1874,19
728,00	1971,81
729,00	2668,87
730,00	1842,89
731,00	2023,92
732,00	1989,63
733,00	1799,03
734,00	2351,27
735,00	2000,28
736,00	1896,24
737,00	1844,78
738,00	1908,97
739,00	2022,25
740,00	2117,34
741,00	2422,31
742,00	3126,96
743,00	2354,03
744,00	2294,21
745,00	2112,88
746,00	2351,19
747,00	2392,17
748,00	2747,88
749,00	2922,66
750,00	2631,29
751,00	3029,37
752,00	4232,67
753,00	5885,79
754,00	7907,06
755,00	10613,89
756,00	14057,68
757,00	22243,03
758,00	41617,30
759,00	51953,79
760,00	39654,99
761,00	44844,10
762,00	25598,89
763,00	15569,81
764,00	9885,02
765,00	6758,30
766,00	4254,00
767,00	3468,99
768,00	2673,81
769,00	2392,48
770,00	2493,42
771,00	2277,43
772,00	2282,01
773,00	2319,25
774,00	2298,76
775,00	2420,39
776,00	2037,08
777,00	2077,87
778,00	2079,78
779,00	2021,69
780,00	2117,87
781,00	1908,38
782,00	2328,63
783,00	2075,24
784,00	2314,23
785,00	2654,57
786,00	2099,44
787,00	2093,03
788,00	2164,26
789,00	2137,35
790,00	2089,29
791,00	2105,86
792,00	2256,31
793,00	2397,88
794,00	3256,90
795,00	3796,02
796,00	3695,03
797,00	4015,63
798,00	3316,84
799,00	2681,85
800,00	2623,69
801,00	2550,06
802,00	2889,78
803,00	2419,24
804,00	2165,04
805,00	1960,15
806,00	2082,67
807,00	1892,51
808,00	1816,01
809,00	1818,16
810,00	2080,83
811,00	1853,24
812,00	2223,21
813,00	2042,54
814,00	2245,26
815,00	2075,40
816,00	2379,92
817,00	2200,82
818,00	2007,06
819,00	2295,74
820,00	1951,52
821,00	2420,22
822,00	2069,99
823,00	2063,46
824,00	2208,86
825,00	2297,77
826,00	2305,12
827,00	2948,03
828,00	3082,72
829,00	4435,80
830,00	6491,32
831,00	14417,64
832,00	13345,36
833,00	14818,51
834,00	15364,96
835,00	9105,40
836,00	6615,90
837,00	4959,95
838,00	3496,34
839,00	2782,01
840,00	2316,97
841,00	15901,68
842,00	2811,55
843,00	2577,73
844,00	2197,79
845,00	2493,92
846,00	2144,99
847,00	1928,55
848,00	2041,37
849,00	1993,00
850,00	2054,05
851,00	1844,65
852,00	1731,14
853,00	2131,03
854,00	1848,09
855,00	1841,71
856,00	1813,68
857,00	2113,16
858,00	1936,23
859,00	2319,27
860,00	2291,51
861,00	1960,62
862,00	1966,27
863,00	1930,51
864,00	2213,23
865,00	2048,34
866,00	2628,11
867,00	2763,38
868,00	3466,71
869,00	5494,55
870,00	4362,60
871,00	5627,77
872,00	4547,29
873,00	3328,37
874,00	2778,72
875,00	2616,08
876,00	2316,18
877,00	1872,62
878,00	2006,49
879,00	2200,52
880,00	2092,55
881,00	1766,11
882,00	2265,03
883,00	1896,82
884,00	1774,86
885,00	1965,27
886,00	1930,26
887,00	2043,41
888,00	1877,11
889,00	1844,36
890,00	2259,93
891,00	2499,22
892,00	2045,92
893,00	1819,14
894,00	1746,10
895,00	1835,87
896,00	1925,95
897,00	1771,15
898,00	2126,08
899,00	1916,60
900,00	2214,58
901,00	2035,94
902,00	2047,49
903,00	2426,76
904,00	2557,05
905,00	3139,50
906,00	4793,95
907,00	8399,78
908,00	8146,03
909,00	8027,41
910,00	9527,76
911,00	6397,03
912,00	4751,24
913,00	3754,75
914,00	2999,15
915,00	2541,18
916,00	2474,54
917,00	2005,71
918,00	1799,78
919,00	1777,00
920,00	1880,32
921,00	1925,79
922,00	2017,14
923,00	2071,47
924,00	1967,50
925,00	1910,80
926,00	1980,41
927,00	1948,39
928,00	1902,56
929,00	1971,37
930,00	1895,01
931,00	2125,52
932,00	1807,38
933,00	2302,82
934,00	1772,86
935,00	2231,76
936,00	1953,46
937,00	1824,12
938,00	1760,63
939,00	2312,92
940,00	1813,53
941,00	1812,06
942,00	2108,64
943,00	2143,23
944,00	3151,50
945,00	2879,87
946,00	4245,86
947,00	6093,85
948,00	5260,62
949,00	6469,63
950,00	5681,00
951,00	4013,54
952,00	3132,89
953,00	2632,28
954,00	2327,16
955,00	2345,11
956,00	1917,44
957,00	1809,97
958,00	1916,85
959,00	1990,14
960,00	1686,53
961,00	2129,59
962,00	1861,93
963,00	2019,16
964,00	2998,27
965,00	1921,17
966,00	1917,87
967,00	2094,45
968,00	1783,55
969,00	2615,28
970,00	1918,24
971,00	2132,87
972,00	1877,81
973,00	2078,50
974,00	1798,42
975,00	1868,98
976,00	1696,01
977,00	2113,88
978,00	1969,01
979,00	1847,34
980,00	1845,75
981,00	2114,03
982,00	1933,06
983,00	1972,87
984,00	2306,38
985,00	2815,24
986,00	3744,06
987,00	5611,87
988,00	5411,82
989,00	4924,72
990,00	5534,17
991,00	4109,73
992,00	3364,41
993,00	2638,53
994,00	2316,58
995,00	2257,37
996,00	1909,50
997,00	2154,01
998,00	1941,40
999,00	2420,97
1000,00	1675,68
1001,00	1977,00
1002,00	1732,81
1003,00	1698,31
1004,00	2190,63
1005,00	1702,40
1006,00	1751,64
1007,00	1930,15
1008,00	1796,56
1009,00	1744,93
1010,00	1796,52
1011,00	1728,59
1012,00	2109,49
1013,00	1708,47
1014,00	1775,86
1015,00	1965,83
1016,00	1962,60
1017,00	1711,96
1018,00	2104,05
1019,00	2036,31
1020,00	1849,80
1021,00	1842,80
1022,00	1996,43
1023,00	1897,04
1024,00	2291,21
1025,00	2104,44
1026,00	2497,46
1027,00	3108,28
1028,00	5497,59
1029,00	5978,01
1030,00	5224,26
1031,00	6779,11
1032,00	5462,65
1033,00	4226,99
1034,00	3226,46
1035,00	3133,59
1036,00	2534,32
1037,00	2292,90
1038,00	2028,85
1039,00	1799,04
1040,00	1896,83
1041,00	1876,78
1042,00	2163,31
1043,00	2022,10
1044,00	3491,00
1045,00	2077,66
1046,00	1758,29
1047,00	1719,09
1048,00	1975,47
1049,00	1872,12
1050,00	1948,48
1051,00	1860,71
1052,00	1977,14
1053,00	1977,60
1054,00	1722,48
1055,00	2059,95
1056,00	2117,23
1057,00	1819,35
1058,00	1843,97
1059,00	1962,18
1060,00	1817,18
1061,00	1858,60
1062,00	1717,70
1063,00	1638,25
1064,00	2171,99
1065,00	1881,87
1066,00	1797,66
1067,00	2263,77
1068,00	2402,83
1069,00	2697,94
1070,00	2982,48
1071,00	3578,55
1072,00	3055,96
1073,00	3152,20
1074,00	3233,42
1075,00	3265,98
1076,00	2293,44
1077,00	2140,23
1078,00	2108,53
1079,00	1814,13
1080,00	2482,42
1081,00	2151,16
1082,00	1791,10
1083,00	2030,56
1084,00	1834,73
1085,00	2116,53
1086,00	1654,81
1087,00	2065,52
1088,00	1987,24
1089,00	1804,77
1090,00	1781,35
1091,00	2113,46
1092,00	2207,23
1093,00	2632,84
1094,00	1967,56
1095,00	1878,06
1096,00	1833,56
1097,00	1984,01
1098,00	1652,39
1099,00	2214,86
1100,00	1820,87
1101,00	1867,81
1102,00	1830,22
1103,00	2189,29
1104,00	2105,98
1105,00	2434,27
1106,00	1907,26
1107,00	2021,65
1108,00	2028,57
1109,00	1876,75
1110,00	1987,35
1111,00	2842,17
1112,00	2755,53
1113,00	3262,61
1114,00	5266,78
1115,00	5758,08
1116,00	5466,38
1117,00	6636,59
1118,00	5795,04
1119,00	4252,80
1120,00	3667,03
1121,00	4220,42
1122,00	2571,89
1123,00	2153,84
1124,00	2338,09
1125,00	1784,21
1126,00	1942,10
1127,00	1948,42
1128,00	2755,20
1129,00	1768,35
1130,00	1691,75
1131,00	2070,24
1132,00	1876,44
1133,00	1976,69
1134,00	2409,21
1135,00	2057,11
1136,00	2218,70
1137,00	2039,95
1138,00	1841,67
1139,00	1870,49
1140,00	1817,25
1141,00	1770,08
1142,00	1725,68
1143,00	1846,29
1144,00	2162,47
1145,00	2395,85
1146,00	1916,32
1147,00	2085,35
1148,00	1755,09
1149,00	1717,95
1150,00	1861,05
1151,00	2123,49
1152,00	2044,68
1153,00	1887,75
1154,00	2196,30
1155,00	2102,08
1156,00	2407,30
1157,00	2288,78
1158,00	2384,96
1159,00	2180,65
1160,00	2092,08
1161,00	2351,11
1162,00	2435,16
1163,00	2052,17
1164,00	1806,57
1165,00	2284,41
1166,00	2330,99
1167,00	1884,35
1168,00	1985,60
1169,00	1801,35
1170,00	1831,38
1171,00	2261,41
1172,00	1784,74
1173,00	1905,02
1174,00	1840,25
1175,00	1725,79
1176,00	1753,06
1177,00	2042,16
1178,00	2462,82
1179,00	2109,54
1180,00	1834,20
1181,00	1949,07
1182,00	1855,48
1183,00	1992,44
1184,00	1767,92
1185,00	1881,32
1186,00	2029,24
1187,00	1953,07
1188,00	2074,82
1189,00	1698,56
1190,00	1795,30
1191,00	2013,41
1192,00	2250,88
1193,00	1824,17
1194,00	1838,66
1195,00	1999,50
1196,00	2186,53
1197,00	1782,77
1198,00	2270,44
1199,00	2191,51
1200,00	2065,04
1201,00	1959,68
1202,00	2424,80
1203,00	2881,84
1204,00	4005,44
1205,00	5850,65
1206,00	4810,72
1207,00	5612,06
1208,00	6457,48
1209,00	4541,89
1210,00	3529,29
1211,00	3138,14
1212,00	2567,30
1213,00	2162,97
1214,00	1912,62
1215,00	2058,75
1216,00	1729,41
1217,00	2025,81
1218,00	1815,83
1219,00	1814,77
1220,00	1836,07
1221,00	2289,68
1222,00	2096,93
1223,00	1742,67
1224,00	1837,65
1225,00	1736,58
1226,00	1751,42
1227,00	1913,50
1228,00	1723,27
1229,00	1827,10
1230,00	1748,44
1231,00	1793,35
1232,00	1691,71
1233,00	1727,11
1234,00	1850,18
1235,00	1686,93
1236,00	2031,26
1237,00	1888,09
1238,00	1850,68
1239,00	1873,22
1240,00	1628,45
1241,00	1998,29
1242,00	1850,68
1243,00	2077,99
1244,00	1671,44
1245,00	1872,97
1246,00	2095,20
1247,00	2404,57
1248,00	2319,83
1249,00	2224,52
1250,00	1967,75
1251,00	2072,50
1252,00	1941,19
1253,00	2152,68
1254,00	1826,13
1255,00	1984,23
1256,00	1827,02
1257,00	1906,34
1258,00	1713,04
1259,00	1589,11
1260,00	2010,61
1261,00	1858,04
1262,00	1729,92
1263,00	1752,30
1264,00	1925,79
1265,00	1694,63
1266,00	2492,14
1267,00	1844,09
1268,00	1687,70
1269,00	1770,99
1270,00	2024,24
1271,00	1730,97
1272,00	1792,54
1273,00	1943,11
1274,00	1807,72
1275,00	1728,61
1276,00	2473,84
1277,00	4475,24
1278,00	2285,86
1279,00	1933,42
1280,00	1835,73
1281,00	1736,37
1282,00	1739,24
1283,00	1711,46
1284,00	1778,82
1285,00	2583,44
1286,00	1749,30
1287,00	1926,54
1288,00	1902,53
1289,00	2538,25
1290,00	1856,73
1291,00	1763,56
1292,00	1948,76
1293,00	1800,78
1294,00	1728,06
1295,00	1882,07
1296,00	2414,67
1297,00	2142,39
1298,00	2541,59
1299,00	3187,51
1300,00	4666,03
1301,00	4612,03
1302,00	4801,70
1303,00	5009,92
1304,00	5160,12
1305,00	3674,95
1306,00	2966,39
1307,00	2650,78
1308,00	2501,05
1309,00	2008,90
1310,00	1901,09
1311,00	1906,51
1312,00	1829,52
1313,00	1763,13
1314,00	1886,08
1315,00	2313,88
1316,00	1651,98
1317,00	1652,37
1318,00	1866,56
1319,00	1945,28
1320,00	1798,09
1321,00	2021,21
1322,00	4039,55
1323,00	1754,47
1324,00	1709,95
1325,00	1716,52
1326,00	1694,50
1327,00	1570,94
1328,00	1928,77
1329,00	1658,80
1330,00	1820,80
1331,00	1915,26
1332,00	1677,62
1333,00	1773,78
1334,00	1638,13
1335,00	2004,14
1336,00	1977,39
1337,00	2052,54
1338,00	1845,92
1339,00	1651,22
1340,00	1849,40
1341,00	2001,44
1342,00	1964,79
1343,00	2438,40
1344,00	2148,75
1345,00	1764,23
1346,00	1840,91
1347,00	1943,74
1348,00	1945,36
1349,00	1727,61
1350,00	2557,36
1351,00	2367,80
1352,00	2030,98
1353,00	1965,89
1354,00	3109,46
1355,00	1761,25
1356,00	1639,34
1357,00	1657,52
1358,00	1925,71
1359,00	2047,55
1360,00	1798,11
1361,00	1675,39
1362,00	1725,07
1363,00	1786,39
1364,00	1980,11
1365,00	2185,94
1366,00	1674,54
1367,00	1594,26
1368,00	1745,28
1369,00	1711,48
1370,00	1948,31
1371,00	1703,96
1372,00	1591,21
1373,00	2318,08
1374,00	1748,11
1375,00	1841,07
1376,00	1935,48
1377,00	1977,14
1378,00	2170,99
1379,00	1927,54
1380,00	2822,47
1381,00	1741,09
1382,00	1662,40
1383,00	2353,16
1384,00	1770,58
1385,00	1971,04
1386,00	2158,01
1387,00	2196,08
1388,00	1816,02
1389,00	2087,76
1390,00	1681,97
1391,00	1716,78
1392,00	2313,81
1393,00	1987,82
1394,00	1843,62
1395,00	1766,57
1396,00	2229,14
1397,00	1871,35
1398,00	3087,42
1399,00	4311,59
1400,00	3498,06
1401,00	3971,36
1402,00	5161,99
1403,00	3772,79
1404,00	3828,85
1405,00	3471,36
1406,00	2869,18
1407,00	2492,41
1408,00	2325,35
1409,00	2057,61
1410,00	1854,86
1411,00	9351,38
1412,00	2282,44
1413,00	1661,52
1414,00	1605,72
1415,00	1696,22
1416,00	1572,42
1417,00	1611,57
1418,00	1909,08
1419,00	1982,14
1420,00	1670,32
1421,00	1627,73
1422,00	1552,95
1423,00	1547,08
1424,00	1820,47
1425,00	1581,62
1426,00	1886,57
1427,00	1855,56
1428,00	1532,58
1429,00	1789,53
1430,00	1566,13
1431,00	1616,53
1432,00	1876,83
1433,00	1703,94
1434,00	1954,30
1435,00	1870,18
1436,00	1719,62
1437,00	2094,58
1438,00	1715,80
1439,00	1704,38
1440,00	1736,01
1441,00	1712,12
1442,00	1671,69
1443,00	1648,36
1444,00	1751,17
1445,00	1752,31
1446,00	2087,21
1447,00	1922,14
1448,00	2036,42
1449,00	1860,10
1450,00	1874,77
1451,00	1796,81
1452,00	2407,63
1453,00	2117,72
1454,00	2440,07
1455,00	2426,56
1456,00	2103,60
1457,00	2576,40
1458,00	2298,42
1459,00	1888,98
1460,00	1812,46
1461,00	1917,26
1462,00	1793,63
1463,00	1893,96
1464,00	1721,04
1465,00	1783,14
1466,00	1640,97
1467,00	1965,94
1468,00	1709,09
1469,00	1645,99
1470,00	1741,51
1471,00	1933,61
1472,00	1772,53
1473,00	1645,86
1474,00	1793,07
1475,00	1639,70
1476,00	2449,90
1477,00	2015,01
1478,00	3427,00
1479,00	2343,69
1480,00	1874,18
1481,00	1677,37
1482,00	1735,12
1483,00	1702,69
1484,00	2068,58
1485,00	2064,62
1486,00	1716,52
1487,00	1967,39
1488,00	1988,30
1489,00	1880,26
1490,00	1919,40
1491,00	1904,01
1492,00	1765,04
1493,00	1650,97
1494,00	1612,54
1495,00	1939,34
1496,00	1698,21
1497,00	2196,70
1498,00	2116,31
1499,00	1958,95
1500,00	1867,83
1501,00	1873,93
1502,00	1692,49
1503,00	2449,12
1504,00	1872,99
1505,00	2389,91
1506,00	2258,16
1507,00	2448,96
1508,00	2762,36
1509,00	2593,44
1510,00	2655,96
1511,00	3097,22
1512,00	2592,74
1513,00	2314,35
1514,00	2143,12
1515,00	2075,67
1516,00	4052,45
1517,00	2369,92
1518,00	1843,22
1519,00	1831,00
1520,00	1976,47
1521,00	1697,59
1522,00	1883,48
1523,00	1760,43
1524,00	1728,05
1525,00	1615,64
1526,00	1660,83
1527,00	1596,93
1528,00	1834,64
1529,00	1554,26
1530,00	1587,05
1531,00	1690,94
1532,00	1647,16
1533,00	1505,07
1534,00	1762,53
1535,00	1551,85
1536,00	1811,11
1537,00	1970,48
1538,00	1949,51
1539,00	1993,28
1540,00	1875,92
1541,00	1849,65
1542,00	1647,41
1543,00	1702,38
1544,00	1956,66
1545,00	1821,73
1546,00	1720,75
1547,00	1807,47
1548,00	1720,25
1549,00	1667,62
1550,00	1716,69
1551,00	1830,66
1552,00	1739,53
1553,00	1706,42
1554,00	1758,01
1555,00	1687,48
1556,00	1718,51
1557,00	1999,75
1558,00	1831,36
1559,00	1750,28
1560,00	1825,06
1561,00	1930,72
1562,00	2553,32
1563,00	2362,74
1564,00	2208,05
1565,00	2384,46
1566,00	2535,27
1567,00	2636,66
1568,00	2273,44
1569,00	2096,92
1570,00	1981,98
1571,00	2027,90
1572,00	2062,70
1573,00	1877,72
1574,00	2200,10
1575,00	1678,91
1576,00	1570,17
1577,00	1614,91
1578,00	1933,88
1579,00	1711,06
1580,00	1641,53
1581,00	1701,60
1582,00	1582,53
1583,00	2212,93
1584,00	1785,11
1585,00	1552,18
1586,00	1795,71
1587,00	1877,23
1588,00	2013,13
1589,00	1701,16
1590,00	1858,01
1591,00	1738,16
1592,00	2290,29
1593,00	1620,35
1594,00	1786,83
1595,00	1604,53
1596,00	1705,72
1597,00	1640,15
1598,00	1648,86
1599,00	1722,87
1600,00	1523,35
1601,00	1903,84
1602,00	2049,79
1603,00	1838,15
1604,00	1668,40
1605,00	2196,34
1606,00	1612,69
1607,00	1692,68
1608,00	1658,60
1609,00	1717,91
1610,00	1582,70
1611,00	2067,75
1612,00	1656,96
1613,00	1853,89
1614,00	1625,81
1615,00	1694,00
1616,00	1977,11
1617,00	1858,45
1618,00	2044,60
1619,00	2013,47
1620,00	2403,53
1621,00	2261,43
1622,00	2149,98
1623,00	2552,65
1624,00	2447,06
1625,00	2162,64
1626,00	2598,85
1627,00	1963,21
1628,00	1890,61
1629,00	3926,11
1630,00	1980,25
1631,00	1706,42
1632,00	1893,01
1633,00	1730,72
1634,00	1809,34
1635,00	1702,38
1636,00	1718,64
1637,00	1701,44
1638,00	1598,12
1639,00	1590,61
1640,00	1847,07
1641,00	2089,91
1642,00	2087,32
1643,00	1652,26
1644,00	2379,08
1645,00	1916,81
1646,00	1718,73
1647,00	1972,99
1648,00	1792,40
1649,00	1719,42
1650,00	2414,90
1651,00	2067,41
1652,00	1609,76
1653,00	1676,95
1654,00	1741,47
1655,00	1727,60
1656,00	1665,06
1657,00	2155,13
1658,00	1651,45
1659,00	1924,23
1660,00	1909,71
1661,00	1995,17
1662,00	1808,91
1663,00	1950,37
1664,00	1888,03
1665,00	1686,56
1666,00	1870,54
1667,00	2364,41
1668,00	1701,65
1669,00	1724,48
1670,00	1959,68
1671,00	1663,62
1672,00	1594,53
1673,00	1969,94
1674,00	1921,41
1675,00	1944,89
1676,00	1923,61
1677,00	2026,28
1678,00	2340,43
1679,00	2418,69
1680,00	2496,42
1681,00	2556,46
1682,00	3269,24
1683,00	2685,20
1684,00	2727,15
1685,00	2409,32
1686,00	1898,85
1687,00	1840,82
1688,00	2098,84
1689,00	1704,19
1690,00	1699,06
1691,00	1658,85
1692,00	1666,76
1693,00	2171,41
1694,00	1659,69
1695,00	1778,07
1696,00	1760,44
1697,00	1791,17
1698,00	1623,19
1699,00	1817,24
1700,00	1825,23
1701,00	2047,09
1702,00	1653,01
1703,00	1592,45
1704,00	1631,46
1705,00	1871,85
1706,00	1632,65
1707,00	1633,41
1708,00	1636,92
1709,00	1912,17
1710,00	1760,36
1711,00	1610,80
1712,00	1728,05
1713,00	2285,66
1714,00	1887,42
1715,00	1762,10
1716,00	2149,75
1717,00	1744,39
1718,00	2209,70
1719,00	2029,90
1720,00	1668,66
1721,00	1845,56
1722,00	1665,82
1723,00	1988,11
1724,00	1715,07
1725,00	1807,77
1726,00	1826,37
1727,00	1667,76
1728,00	2122,37
1729,00	1597,85
1730,00	2340,05
1731,00	1900,69
1732,00	2398,77
1733,00	1881,56
1734,00	1577,07
1735,00	1748,36
1736,00	1690,68
1737,00	1593,72
1738,00	1770,01
1739,00	2037,67
1740,00	2019,93
1741,00	2514,56
1742,00	1966,89
1743,00	1776,25
1744,00	1748,71
1745,00	1746,66
1746,00	1777,25
1747,00	1824,88
1748,00	1962,23
1749,00	2294,66
1750,00	1988,77
1751,00	2506,20
1752,00	1721,18
1753,00	1601,80
1754,00	1713,35
1755,00	1820,05
1756,00	1702,68
1757,00	2158,19
1758,00	1652,43
1759,00	1616,98
1760,00	1645,15
1761,00	1870,46
1762,00	1790,82
1763,00	1582,72
1764,00	1924,28
1765,00	1654,57
1766,00	1638,98
1767,00	1607,11
1768,00	1654,84
1769,00	1832,58
1770,00	1598,29
1771,00	1701,93
1772,00	2314,20
1773,00	1639,75
1774,00	1531,05
1775,00	1661,23
1776,00	1726,55
1777,00	1516,45
1778,00	1627,39
1779,00	1587,88
1780,00	1567,52
1781,00	1568,80
1782,00	1622,10
1783,00	1804,55
1784,00	1776,47
1785,00	1759,04
1786,00	1877,09
1787,00	1676,76
1788,00	1847,23
1789,00	1880,75
1790,00	2125,75
1791,00	1665,29
1792,00	1865,66
1793,00	1696,65
1794,00	1607,04
1795,00	1674,54
1796,00	1608,84
1797,00	1528,76
1798,00	1718,59
1799,00	1662,23
1800,00	2042,80
1801,00	2007,63
1802,00	2479,67
1803,00	2222,39
1804,00	2382,87
1805,00	2326,37
1806,00	2462,74
1807,00	2361,90
1808,00	2117,55
1809,00	2179,04
1810,00	2244,56
1811,00	1975,51
1812,00	1750,80
1813,00	1737,11
1814,00	1799,04
1815,00	1928,18
1816,00	2569,25
1817,00	1737,99
1818,00	3327,63
1819,00	2138,70
1820,00	1998,19
1821,00	1633,87
1822,00	1529,87
1823,00	1616,92
1824,00	1762,63
1825,00	2254,79
1826,00	1638,09
1827,00	2181,82
1828,00	2383,82
1829,00	1767,40
1830,00	1958,33
1831,00	1638,13
1832,00	1550,59
1833,00	1503,84
1834,00	1621,74
1835,00	1742,59
1836,00	1566,97
1837,00	1566,93
1838,00	1806,92
1839,00	2140,14
1840,00	2464,69
1841,00	1879,76
1842,00	1915,39
1843,00	1941,13
1844,00	2331,38
1845,00	1901,81
1846,00	1596,06
1847,00	1658,44
1848,00	1835,89
1849,00	1733,21
1850,00	1816,35
1851,00	1944,41
1852,00	1624,05
1853,00	1638,86
1854,00	1661,50
1855,00	1602,33
1856,00	1579,11
1857,00	1672,48
1858,00	2256,18
1859,00	1573,00
1860,00	1778,71
1861,00	3018,74
1862,00	1696,62
1863,00	1692,60
1864,00	1590,24
1865,00	1748,99
1866,00	1925,78
1867,00	1614,50
1868,00	1793,12
1869,00	1579,47
1870,00	1694,11
1871,00	1581,73
1872,00	1776,73
1873,00	1770,10
1874,00	1858,71
1875,00	1695,17
1876,00	1567,99
1877,00	1773,64
1878,00	2080,14
1879,00	1948,22
1880,00	1533,75
1881,00	1802,18
1882,00	1663,31
1883,00	1664,84
1884,00	1619,42
1885,00	1792,24
1886,00	1788,93
1887,00	1543,30
1888,00	1615,64
1889,00	1792,41
1890,00	1549,58
1891,00	1908,49
1892,00	2083,14
1893,00	1687,43
1894,00	1899,78
1895,00	1797,59
1896,00	1990,98
1897,00	2544,51
1898,00	1671,69
1899,00	1764,33
1900,00	1687,03
1901,00	1792,18
1902,00	1726,54
1903,00	2188,34
1904,00	1830,74
1905,00	3015,73
1906,00	1676,35
1907,00	1599,38
1908,00	3047,61
1909,00	1678,91
1910,00	1646,13
1911,00	1774,09
1912,00	1853,24
1913,00	2210,71
1914,00	1683,72
1915,00	1694,80
1916,00	1882,95
1917,00	1804,40
1918,00	1769,54
1919,00	1795,75
1920,00	1620,18
1921,00	2059,94
1922,00	1733,59
1923,00	1765,33
1924,00	1814,10
1925,00	1628,97
1926,00	1772,74
1927,00	1960,26
1928,00	2097,53
1929,00	1889,30
1930,00	1627,78
1931,00	1947,54
1932,00	2543,49
1933,00	1933,25
1934,00	1822,34
1935,00	1923,95
1936,00	2039,26
1937,00	1845,78
1938,00	2067,30
1939,00	2004,50
1940,00	2664,72
1941,00	1877,73
1942,00	1865,17
1943,00	1781,05
1944,00	1918,40
1945,00	1720,03
1946,00	1562,85
1947,00	1566,74
1948,00	2396,30
1949,00	1612,41
1950,00	1883,55
1951,00	1632,27
1952,00	1676,35
1953,00	1546,78
1954,00	1889,39
1955,00	1678,27
1956,00	1683,98
1957,00	1812,62
1958,00	1532,40
1959,00	1700,90
1960,00	1557,16
1961,00	1978,60
1962,00	1536,55
1963,00	1873,54
1964,00	1574,49
1965,00	1832,70
1966,00	1598,66
1967,00	1991,59
1968,00	1595,17
1969,00	1542,97
1970,00	1769,46
1971,00	1954,10
1972,00	1740,94
1973,00	1875,24
1974,00	1800,57
1975,00	1856,08
1976,00	1844,36
1977,00	1779,26
1978,00	1751,56
1979,00	1793,99
1980,00	3179,98
1981,00	1801,84
1982,00	1579,96
1983,00	1724,63
1984,00	1765,09
1985,00	2165,76
1986,00	1579,41
1987,00	1584,56
1988,00	1637,36
1989,00	1746,29
1990,00	2201,37
1991,00	1879,72
1992,00	1945,91
1993,00	2621,32
1994,00	1855,95
1995,00	1564,07
1996,00	1805,35
1997,00	1754,76
1998,00	1822,39
1999,00	1523,50
2000,00	1501,06
2001,00	1683,95
2002,00	2100,68
2003,00	1491,09
2004,00	1876,19
2005,00	1548,97
2006,00	2234,07
2007,00	1673,30
2008,00	1512,25
2009,00	2166,54
2010,00	1588,55
2011,00	1506,04
2012,00	1688,01
2013,00	1634,21
2014,00	1709,39
2015,00	1573,39
2016,00	1569,11
2017,00	1667,93
2018,00	1720,50
2019,00	1569,25
2020,00	1561,06
2021,00	1814,13
2022,00	1743,32
2023,00	1686,06
2024,00	1609,76
2025,00	2050,92
2026,00	1644,18
2027,00	1557,06
2028,00	1850,41
2029,00	1596,00
2030,00	1568,39
2031,00	1592,98
2032,00	1530,23
2033,00	1750,95
2034,00	2124,55
2035,00	1792,16
2036,00	1754,54
2037,00	1644,23
2038,00	1685,72
2039,00	1668,65
2040,00	1798,48
2041,00	1751,30
2042,00	1560,06
2043,00	1697,43
2044,00	1841,92
2045,00	1585,57
2046,00	1585,57
2047,00	1585,57
>>>>>End Processed Spectral Data<<<<<
