SpectraSuite Datei
++++++++++++++++++++++++++++++++++++
Datum: Thu Sep 19 16:14:05 CEST 2024
Benutzer: Student
Dark-Spektrum vorhanden: Nein
Referenz-Spektrum vorhanden: Nein
Zahl der probierten Teilspektren: 1
Spektrometer: USB2+H15728
Integrationszeit (usec): 1000000 (USB2+H15728)
Spektren Durchschnitt berechnet: 150 (USB2+H15728)
Boxcar Glättung: 0 (USB2+H15728)
Dunkelstromkorrektur: Nein (USB2+H15728)
Puls/Lampe aktiviert: Nein (USB2+H15728)
Correct for Detector Non-linearity: Nein (USB2+H15728)
Streulichtkorrektur: Nein (USB2+H15728)
Anzahl Pixel in verarbeitetem Spektrum: 2048
>>>>>Begin Processed Spectral Data<<<<<
0,00	983,63
1,00	983,63
2,00	983,63
3,00	956,65
4,00	1067,47
5,00	1056,13
6,00	1037,48
7,00	1063,71
8,00	1160,38
9,00	1109,34
10,00	1113,38
11,00	1198,06
12,00	1122,65
13,00	1390,33
14,00	1140,92
15,00	1198,68
16,00	1196,61
17,00	1320,83
18,00	1222,95
19,00	1388,45
20,00	1248,85
21,00	1270,54
22,00	1315,80
23,00	1393,57
24,00	1306,94
25,00	1353,44
26,00	1396,46
27,00	1476,68
28,00	1384,86
29,00	1395,52
30,00	1440,40
31,00	1421,27
32,00	1588,63
33,00	1414,45
34,00	1458,78
35,00	1470,11
36,00	1459,79
37,00	1394,04
38,00	1444,83
39,00	1605,59
40,00	1411,28
41,00	1533,68
42,00	1442,69
43,00	1497,44
44,00	1418,40
45,00	1421,50
46,00	1389,70
47,00	1485,23
48,00	1418,82
49,00	1564,41
50,00	1431,39
51,00	1476,58
52,00	1424,17
53,00	1573,56
54,00	1433,89
55,00	1412,76
56,00	1528,14
57,00	1436,87
58,00	1428,94
59,00	1434,36
60,00	1351,96
61,00	1424,65
62,00	1393,90
63,00	1369,40
64,00	1393,07
65,00	1366,34
66,00	1392,14
67,00	1374,21
68,00	1396,55
69,00	1382,27
70,00	1914,06
71,00	1446,90
72,00	1391,23
73,00	1387,64
74,00	1390,17
75,00	1370,74
76,00	1362,11
77,00	1427,21
78,00	1390,22
79,00	1403,12
80,00	1400,25
81,00	1345,82
82,00	1443,99
83,00	1348,05
84,00	1579,83
85,00	1437,90
86,00	1628,47
87,00	1582,67
88,00	1368,93
89,00	1345,40
90,00	1391,00
91,00	1530,02
92,00	1421,34
93,00	1458,54
94,00	1374,10
95,00	1360,02
96,00	1377,61
97,00	1835,70
98,00	1399,55
99,00	1377,87
100,00	1434,69
101,00	1476,89
102,00	1380,54
103,00	1389,79
104,00	1388,41
105,00	1485,63
106,00	1440,10
107,00	1456,77
108,00	1456,47
109,00	1411,33
110,00	1591,77
111,00	1484,60
112,00	1399,83
113,00	1459,78
114,00	1392,73
115,00	1395,90
116,00	1399,89
117,00	1376,80
118,00	1404,01
119,00	1611,51
120,00	1408,66
121,00	1380,17
122,00	1434,69
123,00	1369,84
124,00	1375,63
125,00	1382,30
126,00	1407,32
127,00	1448,84
128,00	1407,57
129,00	1457,42
130,00	1428,51
131,00	1472,09
132,00	1392,90
133,00	1499,86
134,00	1427,51
135,00	1401,00
136,00	1375,81
137,00	1478,70
138,00	1580,39
139,00	1448,84
140,00	1433,05
141,00	1522,36
142,00	1426,32
143,00	1376,94
144,00	1426,98
145,00	1404,91
146,00	1417,30
147,00	1544,47
148,00	1841,28
149,00	1507,23
150,00	1369,46
151,00	1470,78
152,00	1381,01
153,00	1386,47
154,00	1393,18
155,00	1370,96
156,00	1486,38
157,00	1394,66
158,00	1448,54
159,00	1500,14
160,00	1494,01
161,00	1529,17
162,00	1372,02
163,00	1403,82
164,00	1376,19
165,00	1368,31
166,00	1402,14
167,00	1454,96
168,00	1369,24
169,00	1385,24
170,00	1402,73
171,00	1357,48
172,00	1498,96
173,00	1352,60
174,00	1397,24
175,00	1411,09
176,00	1405,35
177,00	1402,12
178,00	1447,95
179,00	1384,05
180,00	1450,57
181,00	1400,34
182,00	1374,82
183,00	1615,13
184,00	1373,21
185,00	1374,03
186,00	1359,37
187,00	1409,19
188,00	1497,29
189,00	1402,93
190,00	1359,29
191,00	1372,46
192,00	1449,68
193,00	1374,61
194,00	1410,89
195,00	1465,61
196,00	1482,20
197,00	1433,77
198,00	1592,24
199,00	1391,35
200,00	1359,66
201,00	1484,27
202,00	1438,31
203,00	1428,43
204,00	1417,07
205,00	1450,31
206,00	1403,62
207,00	1417,58
208,00	1441,27
209,00	1426,01
210,00	1464,82
211,00	1482,23
212,00	1373,49
213,00	1437,24
214,00	1455,59
215,00	1423,67
216,00	1415,37
217,00	1424,22
218,00	1523,86
219,00	1395,26
220,00	1573,59
221,00	1441,82
222,00	1488,05
223,00	1425,92
224,00	1430,58
225,00	1360,54
226,00	1431,89
227,00	1376,84
228,00	1401,22
229,00	1430,38
230,00	1394,26
231,00	1463,40
232,00	1448,79
233,00	1414,03
234,00	1433,28
235,00	1435,37
236,00	1583,78
237,00	1419,60
238,00	1389,39
239,00	1386,58
240,00	1459,68
241,00	1482,35
242,00	1396,07
243,00	1483,85
244,00	1411,36
245,00	1376,55
246,00	1381,63
247,00	1423,33
248,00	1467,00
249,00	1497,18
250,00	1510,24
251,00	1411,39
252,00	1484,76
253,00	1436,14
254,00	1475,77
255,00	1380,00
256,00	1452,72
257,00	1438,42
258,00	1410,95
259,00	1410,80
260,00	1369,60
261,00	1415,03
262,00	1355,81
263,00	1375,31
264,00	1435,28
265,00	1420,88
266,00	1395,52
267,00	1402,98
268,00	1463,32
269,00	1441,72
270,00	1421,02
271,00	1488,42
272,00	1459,73
273,00	1411,44
274,00	1406,13
275,00	1424,50
276,00	1379,95
277,00	1434,20
278,00	1408,74
279,00	1457,16
280,00	1390,01
281,00	1422,02
282,00	1383,54
283,00	1440,24
284,00	1423,55
285,00	1437,42
286,00	1472,03
287,00	1423,53
288,00	1370,99
289,00	1408,35
290,00	1494,20
291,00	1392,99
292,00	1482,65
293,00	1406,43
294,00	1443,36
295,00	1437,04
296,00	1365,47
297,00	1379,11
298,00	1437,24
299,00	1436,06
300,00	1430,66
301,00	1448,40
302,00	1410,56
303,00	1475,69
304,00	1396,61
305,00	1479,56
306,00	1424,70
307,00	1384,47
308,00	1421,45
309,00	1428,96
310,00	1410,08
311,00	1385,25
312,00	1426,93
313,00	1533,08
314,00	1465,69
315,00	1381,57
316,00	1427,31
317,00	1368,64
318,00	1371,77
319,00	1441,97
320,00	1398,19
321,00	1391,73
322,00	1373,63
323,00	1496,99
324,00	1419,60
325,00	1479,86
326,00	1376,30
327,00	1416,74
328,00	1461,07
329,00	1474,10
330,00	1416,20
331,00	1405,54
332,00	1379,90
333,00	1458,42
334,00	1416,57
335,00	1427,70
336,00	1454,30
337,00	1413,71
338,00	1490,20
339,00	1379,23
340,00	1378,31
341,00	1388,64
342,00	1378,67
343,00	1528,70
344,00	1601,00
345,00	1401,39
346,00	1375,49
347,00	1460,17
348,00	1361,13
349,00	1539,59
350,00	1417,60
351,00	1365,77
352,00	1584,15
353,00	1476,00
354,00	1361,38
355,00	1398,78
356,00	1427,17
357,00	1499,13
358,00	1380,60
359,00	1393,29
360,00	1439,49
361,00	1409,11
362,00	1507,23
363,00	1457,47
364,00	1508,33
365,00	1410,45
366,00	1437,17
367,00	1393,02
368,00	1401,50
369,00	1399,36
370,00	1374,71
371,00	1382,87
372,00	1541,82
373,00	1392,53
374,00	1414,25
375,00	1418,83
376,00	1378,93
377,00	1996,31
378,00	1428,21
379,00	1392,49
380,00	1379,75
381,00	1595,59
382,00	1470,84
383,00	1408,71
384,00	1382,32
385,00	1377,17
386,00	1427,85
387,00	1429,68
388,00	1445,34
389,00	1513,13
390,00	1463,44
391,00	1431,27
392,00	1382,06
393,00	1421,61
394,00	1424,96
395,00	1404,43
396,00	1459,76
397,00	1390,79
398,00	1464,16
399,00	1403,12
400,00	1465,44
401,00	1390,92
402,00	1409,02
403,00	1407,05
404,00	1432,13
405,00	1468,75
406,00	1391,21
407,00	1485,43
408,00	1404,24
409,00	1503,06
410,00	1449,98
411,00	1404,74
412,00	1377,23
413,00	1376,39
414,00	1573,00
415,00	1463,79
416,00	1514,00
417,00	1408,07
418,00	1395,44
419,00	1412,51
420,00	1466,11
421,00	1419,50
422,00	1459,42
423,00	1386,52
424,00	1382,93
425,00	1382,87
426,00	1372,44
427,00	1404,68
428,00	1399,66
429,00	1377,00
430,00	1378,84
431,00	1402,59
432,00	1383,58
433,00	1378,22
434,00	1494,06
435,00	1465,38
436,00	1546,14
437,00	1436,64
438,00	1414,56
439,00	1401,62
440,00	1439,41
441,00	1408,19
442,00	1466,97
443,00	1394,57
444,00	1395,66
445,00	1394,80
446,00	1462,01
447,00	1407,69
448,00	1527,11
449,00	1413,11
450,00	1363,97
451,00	1552,46
452,00	1514,01
453,00	1405,52
454,00	1457,19
455,00	1399,28
456,00	1418,41
457,00	1734,10
458,00	1408,18
459,00	1396,27
460,00	1390,12
461,00	1374,33
462,00	1372,54
463,00	1409,67
464,00	1427,54
465,00	1369,45
466,00	1437,85
467,00	1423,65
468,00	1393,54
469,00	1452,07
470,00	1514,84
471,00	1426,14
472,00	1544,46
473,00	1379,28
474,00	1375,78
475,00	1445,36
476,00	1374,24
477,00	1389,98
478,00	1466,74
479,00	1438,66
480,00	1428,05
481,00	1362,57
482,00	1419,60
483,00	1535,80
484,00	1410,00
485,00	1518,65
486,00	1373,07
487,00	1408,63
488,00	1458,43
489,00	1392,09
490,00	1458,72
491,00	1462,66
492,00	1422,11
493,00	1379,57
494,00	1428,94
495,00	1521,21
496,00	1439,88
497,00	1392,88
498,00	1427,12
499,00	1355,69
500,00	1364,41
501,00	1390,50
502,00	1444,13
503,00	1421,53
504,00	1430,88
505,00	1455,45
506,00	1500,88
507,00	1529,96
508,00	1501,91
509,00	1372,12
510,00	1406,23
511,00	1468,45
512,00	1424,92
513,00	1494,21
514,00	1672,06
515,00	1402,01
516,00	1422,13
517,00	1403,93
518,00	1413,93
519,00	1524,58
520,00	1510,00
521,00	1365,73
522,00	1449,43
523,00	1597,49
524,00	1464,01
525,00	1381,43
526,00	1391,81
527,00	1407,29
528,00	1447,06
529,00	1448,85
530,00	1416,32
531,00	1421,31
532,00	1360,30
533,00	1456,39
534,00	1401,54
535,00	1453,02
536,00	1466,66
537,00	1453,82
538,00	1514,44
539,00	1451,09
540,00	1381,91
541,00	1483,45
542,00	1379,89
543,00	1442,19
544,00	1468,33
545,00	1408,58
546,00	1373,33
547,00	1480,44
548,00	1418,21
549,00	1374,75
550,00	1408,89
551,00	1423,06
552,00	1655,69
553,00	1482,53
554,00	1452,01
555,00	1491,50
556,00	1393,01
557,00	1446,11
558,00	1371,88
559,00	1404,57
560,00	1516,92
561,00	1529,68
562,00	1472,76
563,00	1409,46
564,00	1438,65
565,00	1453,46
566,00	1424,93
567,00	1461,51
568,00	1439,16
569,00	1402,95
570,00	1443,21
571,00	1436,96
572,00	1380,90
573,00	1416,73
574,00	1406,88
575,00	1451,24
576,00	1498,01
577,00	1444,27
578,00	1381,17
579,00	1375,72
580,00	1421,14
581,00	1445,94
582,00	1401,14
583,00	1385,91
584,00	1375,86
585,00	1488,61
586,00	1389,54
587,00	1424,90
588,00	1389,84
589,00	1404,37
590,00	1474,93
591,00	1381,46
592,00	1449,37
593,00	1429,71
594,00	1400,94
595,00	1421,14
596,00	1472,88
597,00	1445,59
598,00	1365,36
599,00	1435,89
600,00	1428,93
601,00	4701,78
602,00	1648,00
603,00	1440,74
604,00	1424,23
605,00	1432,47
606,00	1418,79
607,00	1405,46
608,00	1427,95
609,00	1445,14
610,00	1419,61
611,00	1378,45
612,00	1454,61
613,00	1392,10
614,00	1462,09
615,00	1428,12
616,00	1450,18
617,00	1510,88
618,00	1445,78
619,00	1375,39
620,00	1402,39
621,00	1436,46
622,00	1384,41
623,00	1427,01
624,00	1369,53
625,00	1602,63
626,00	1385,69
627,00	1495,48
628,00	1411,48
629,00	1462,59
630,00	1402,76
631,00	1377,97
632,00	1450,07
633,00	1382,13
634,00	1423,47
635,00	1515,01
636,00	1436,42
637,00	1404,27
638,00	1385,35
639,00	1413,20
640,00	1439,18
641,00	1420,33
642,00	1454,66
643,00	1422,08
644,00	1376,97
645,00	1429,22
646,00	1380,10
647,00	1384,54
648,00	1379,36
649,00	1413,75
650,00	1413,98
651,00	1407,71
652,00	1438,85
653,00	1405,73
654,00	1406,18
655,00	1390,76
656,00	1472,98
657,00	1413,98
658,00	1479,94
659,00	1463,60
660,00	1811,64
661,00	1503,87
662,00	1441,61
663,00	1449,76
664,00	1468,34
665,00	1411,50
666,00	1525,92
667,00	1388,44
668,00	1374,27
669,00	1477,67
670,00	1456,47
671,00	1434,61
672,00	1412,14
673,00	1489,47
674,00	1444,67
675,00	1402,54
676,00	1526,59
677,00	1432,05
678,00	1404,79
679,00	1438,79
680,00	1410,91
681,00	1399,00
682,00	1446,73
683,00	1412,42
684,00	1410,73
685,00	1458,86
686,00	1479,92
687,00	1557,91
688,00	1509,21
689,00	1782,58
690,00	2101,60
691,00	2103,24
692,00	1877,41
693,00	1682,66
694,00	1543,18
695,00	1604,97
696,00	1502,36
697,00	1441,61
698,00	1473,21
699,00	1758,80
700,00	1446,70
701,00	1522,32
702,00	1526,64
703,00	1429,69
704,00	1534,46
705,00	1450,09
706,00	1493,31
707,00	1448,82
708,00	1510,77
709,00	1427,95
710,00	1414,00
711,00	1490,86
712,00	1434,55
713,00	1434,70
714,00	1432,31
715,00	1424,36
716,00	1476,41
717,00	1462,87
718,00	1424,31
719,00	1408,52
720,00	1525,42
721,00	1488,47
722,00	1466,89
723,00	1662,23
724,00	1563,54
725,00	1544,69
726,00	1494,46
727,00	1450,15
728,00	1470,78
729,00	1642,15
730,00	1437,46
731,00	1488,28
732,00	1476,22
733,00	1434,22
734,00	1562,07
735,00	1482,31
736,00	1452,79
737,00	1435,48
738,00	1456,42
739,00	1488,57
740,00	1503,83
741,00	1581,97
742,00	1758,37
743,00	1565,87
744,00	1553,71
745,00	1506,63
746,00	1564,91
747,00	1574,68
748,00	1666,21
749,00	1703,69
750,00	1635,05
751,00	1722,60
752,00	2000,67
753,00	2344,30
754,00	2804,49
755,00	3455,99
756,00	4199,84
757,00	6193,88
758,00	10606,57
759,00	13353,33
760,00	10463,65
761,00	11710,79
762,00	7307,00
763,00	4892,45
764,00	3484,04
765,00	2679,69
766,00	2054,88
767,00	1847,70
768,00	1649,03
769,00	1573,48
770,00	1601,43
771,00	1545,91
772,00	1546,13
773,00	1558,78
774,00	1553,32
775,00	1584,98
776,00	1492,29
777,00	1503,37
778,00	1502,28
779,00	1487,25
780,00	1506,85
781,00	1458,68
782,00	1561,01
783,00	1494,15
784,00	1560,67
785,00	1638,53
786,00	1503,20
787,00	1498,85
788,00	1520,10
789,00	1509,10
790,00	1499,05
791,00	1508,12
792,00	1542,38
793,00	1584,09
794,00	1790,90
795,00	1937,12
796,00	1906,23
797,00	1986,54
798,00	1811,15
799,00	1655,09
800,00	1637,56
801,00	1624,32
802,00	1699,71
803,00	1589,65
804,00	1517,67
805,00	1472,71
806,00	1502,89
807,00	1454,56
808,00	1432,45
809,00	1429,15
810,00	1499,74
811,00	1445,05
812,00	1537,69
813,00	1489,38
814,00	1541,29
815,00	1502,95
816,00	1574,32
817,00	1529,35
818,00	1478,98
819,00	1551,79
820,00	1465,24
821,00	1583,14
822,00	1491,56
823,00	1500,11
824,00	1538,70
825,00	1557,52
826,00	1557,94
827,00	1717,30
828,00	1748,51
829,00	2082,97
830,00	2584,98
831,00	4453,57
832,00	4277,70
833,00	4618,94
834,00	4761,51
835,00	3290,15
836,00	2656,06
837,00	2231,92
838,00	1864,44
839,00	1680,75
840,00	1558,87
841,00	4843,99
842,00	1716,75
843,00	1627,84
844,00	1528,88
845,00	1602,94
846,00	1516,11
847,00	1459,29
848,00	1489,19
849,00	1482,32
850,00	1489,55
851,00	1438,09
852,00	1408,50
853,00	1510,68
854,00	1442,99
855,00	1438,15
856,00	1431,64
857,00	1508,43
858,00	1466,94
859,00	1554,43
860,00	1553,77
861,00	1469,75
862,00	1476,55
863,00	1464,01
864,00	1530,52
865,00	1493,75
866,00	1635,74
867,00	1671,38
868,00	1849,91
869,00	2349,24
870,00	2084,84
871,00	2393,81
872,00	2130,22
873,00	1827,44
874,00	1679,27
875,00	1640,67
876,00	1563,35
877,00	1451,26
878,00	1477,50
879,00	1524,30
880,00	1495,99
881,00	1422,17
882,00	1547,67
883,00	1452,90
884,00	1426,46
885,00	1471,10
886,00	1460,98
887,00	1485,32
888,00	1452,83
889,00	1445,94
890,00	1543,52
891,00	1601,88
892,00	1495,13
893,00	1434,16
894,00	1417,90
895,00	1439,15
896,00	1463,18
897,00	1421,22
898,00	1507,71
899,00	1461,27
900,00	1533,74
901,00	1494,10
902,00	1492,39
903,00	1585,99
904,00	1625,88
905,00	1760,61
906,00	2155,31
907,00	3047,89
908,00	3013,63
909,00	2993,33
910,00	3356,62
911,00	2598,24
912,00	2185,14
913,00	1928,30
914,00	1738,38
915,00	1617,81
916,00	1600,49
917,00	1480,01
918,00	1429,05
919,00	1430,00
920,00	1448,54
921,00	1460,92
922,00	1487,94
923,00	1498,69
924,00	1471,20
925,00	1451,88
926,00	1473,54
927,00	1471,39
928,00	1455,47
929,00	1468,00
930,00	1460,29
931,00	1510,66
932,00	1432,89
933,00	1554,12
934,00	1427,59
935,00	1532,32
936,00	1467,87
937,00	1440,85
938,00	1425,42
939,00	1561,36
940,00	1432,95
941,00	1437,48
942,00	1507,37
943,00	1519,41
944,00	1769,05
945,00	1704,46
946,00	2046,60
947,00	2509,87
948,00	2309,30
949,00	2599,91
950,00	2409,47
951,00	1999,16
952,00	1771,15
953,00	1646,01
954,00	1567,97
955,00	1569,80
956,00	1463,35
957,00	1438,88
958,00	1460,20
959,00	1476,21
960,00	1400,92
961,00	1510,74
962,00	1445,33
963,00	1479,27
964,00	1721,01
965,00	1468,26
966,00	1474,07
967,00	1504,95
968,00	1425,36
969,00	1627,45
970,00	1457,00
971,00	1515,42
972,00	1450,37
973,00	1497,76
974,00	1423,14
975,00	1442,22
976,00	1406,85
977,00	1511,77
978,00	1472,63
979,00	1447,81
980,00	1442,43
981,00	1510,47
982,00	1461,27
983,00	1469,62
984,00	1550,65
985,00	1673,45
986,00	1903,12
987,00	2373,40
988,00	2331,20
989,00	2215,54
990,00	2372,20
991,00	2016,32
992,00	1827,99
993,00	1643,15
994,00	1562,12
995,00	1549,00
996,00	1459,89
997,00	1521,32
998,00	1470,98
999,00	1580,97
1000,00	1400,34
1001,00	1471,95
1002,00	1411,47
1003,00	1402,67
1004,00	1524,05
1005,00	1408,05
1006,00	1421,22
1007,00	1470,65
1008,00	1437,37
1009,00	1423,64
1010,00	1427,85
1011,00	1415,48
1012,00	1500,06
1013,00	1408,63
1014,00	1420,86
1015,00	1469,98
1016,00	1472,04
1017,00	1407,91
1018,00	1509,51
1019,00	1489,39
1020,00	1441,94
1021,00	1442,69
1022,00	1476,32
1023,00	1456,23
1024,00	1549,03
1025,00	1506,95
1026,00	1604,95
1027,00	1764,92
1028,00	2354,66
1029,00	2486,43
1030,00	2298,06
1031,00	2681,74
1032,00	2363,96
1033,00	2055,63
1034,00	1795,19
1035,00	1767,65
1036,00	1615,72
1037,00	1556,66
1038,00	1490,47
1039,00	1433,03
1040,00	1457,31
1041,00	1447,14
1042,00	1518,20
1043,00	1484,76
1044,00	1839,91
1045,00	1499,22
1046,00	1425,40
1047,00	1410,39
1048,00	1475,11
1049,00	1446,98
1050,00	1468,45
1051,00	1447,86
1052,00	1469,58
1053,00	1473,69
1054,00	1408,44
1055,00	1495,71
1056,00	1510,57
1057,00	1441,52
1058,00	1441,89
1059,00	1471,34
1060,00	1437,88
1061,00	1445,17
1062,00	1410,59
1063,00	1388,41
1064,00	1522,02
1065,00	1446,23
1066,00	1420,72
1067,00	1544,93
1068,00	1570,45
1069,00	1642,32
1070,00	1714,79
1071,00	1872,66
1072,00	1747,80
1073,00	1776,11
1074,00	1793,27
1075,00	1801,23
1076,00	1561,79
1077,00	1515,95
1078,00	1511,25
1079,00	1435,00
1080,00	1595,64
1081,00	1515,75
1082,00	1430,54
1083,00	1486,19
1084,00	1440,21
1085,00	1504,51
1086,00	1392,53
1087,00	1497,68
1088,00	1480,25
1089,00	1426,79
1090,00	1420,56
1091,00	1504,71
1092,00	1532,27
1093,00	1639,64
1094,00	1469,72
1095,00	1451,04
1096,00	1439,29
1097,00	1474,08
1098,00	1395,27
1099,00	1523,88
1100,00	1438,04
1101,00	1449,85
1102,00	1440,12
1103,00	1527,89
1104,00	1507,71
1105,00	1588,86
1106,00	1458,37
1107,00	1484,63
1108,00	1486,47
1109,00	1447,95
1110,00	1472,01
1111,00	1683,95
1112,00	1668,86
1113,00	1807,61
1114,00	2303,62
1115,00	2434,78
1116,00	2352,85
1117,00	2650,69
1118,00	2447,03
1119,00	2060,37
1120,00	1910,75
1121,00	2026,11
1122,00	1627,22
1123,00	1522,61
1124,00	1563,40
1125,00	1433,47
1126,00	1465,67
1127,00	1471,46
1128,00	1659,27
1129,00	1423,34
1130,00	1402,28
1131,00	1496,26
1132,00	1447,70
1133,00	1469,92
1134,00	1574,46
1135,00	1488,25
1136,00	1533,94
1137,00	1491,31
1138,00	1443,58
1139,00	1449,07
1140,00	1435,08
1141,00	1419,66
1142,00	1407,24
1143,00	1440,33
1144,00	1517,01
1145,00	1572,76
1146,00	1457,78
1147,00	1497,46
1148,00	1423,67
1149,00	1410,89
1150,00	1443,07
1151,00	1511,85
1152,00	1487,15
1153,00	1450,70
1154,00	1525,02
1155,00	1500,38
1156,00	1574,48
1157,00	1545,58
1158,00	1573,04
1159,00	1523,28
1160,00	1503,40
1161,00	1566,43
1162,00	1587,54
1163,00	1490,50
1164,00	1431,27
1165,00	1553,26
1166,00	1559,81
1167,00	1451,51
1168,00	1477,25
1169,00	1434,53
1170,00	1436,54
1171,00	1541,21
1172,00	1426,14
1173,00	1456,00
1174,00	1448,25
1175,00	1415,24
1176,00	1416,85
1177,00	1489,35
1178,00	1591,97
1179,00	1508,41
1180,00	1438,34
1181,00	1468,14
1182,00	1441,49
1183,00	1478,16
1184,00	1421,95
1185,00	1448,99
1186,00	1488,11
1187,00	1466,60
1188,00	1502,41
1189,00	1404,57
1190,00	1425,29
1191,00	1482,37
1192,00	1540,74
1193,00	1437,87
1194,00	1440,08
1195,00	1479,19
1196,00	1527,43
1197,00	1426,31
1198,00	1548,58
1199,00	1526,45
1200,00	1497,57
1201,00	1468,17
1202,00	1589,35
1203,00	1701,98
1204,00	1992,61
1205,00	2450,71
1206,00	2201,34
1207,00	2394,85
1208,00	2599,48
1209,00	2138,39
1210,00	1868,76
1211,00	1765,75
1212,00	1627,67
1213,00	1527,37
1214,00	1456,06
1215,00	1497,01
1216,00	1412,73
1217,00	1483,18
1218,00	1434,94
1219,00	1437,64
1220,00	1438,85
1221,00	1552,77
1222,00	1503,70
1223,00	1417,52
1224,00	1436,61
1225,00	1414,42
1226,00	1420,46
1227,00	1455,55
1228,00	1412,14
1229,00	1437,01
1230,00	1414,48
1231,00	1428,63
1232,00	1398,14
1233,00	1409,78
1234,00	1444,92
1235,00	1401,82
1236,00	1489,27
1237,00	1453,04
1238,00	1439,49
1239,00	1449,77
1240,00	1388,95
1241,00	1478,05
1242,00	1443,56
1243,00	1497,54
1244,00	1401,06
1245,00	1448,14
1246,00	1495,02
1247,00	1569,89
1248,00	1551,85
1249,00	1531,49
1250,00	1468,67
1251,00	1500,21
1252,00	1463,55
1253,00	1516,14
1254,00	1432,38
1255,00	1474,88
1256,00	1432,95
1257,00	1460,24
1258,00	1401,73
1259,00	1378,54
1260,00	1487,71
1261,00	1446,33
1262,00	1414,40
1263,00	1418,72
1264,00	1462,94
1265,00	1404,51
1266,00	1599,55
1267,00	1438,73
1268,00	1404,84
1269,00	1421,59
1270,00	1490,02
1271,00	1412,75
1272,00	1429,30
1273,00	1468,73
1274,00	1434,37
1275,00	1412,39
1276,00	1596,39
1277,00	2088,10
1278,00	1555,97
1279,00	1461,35
1280,00	1433,13
1281,00	1417,85
1282,00	1417,23
1283,00	1404,51
1284,00	1426,59
1285,00	1620,17
1286,00	1414,49
1287,00	1463,33
1288,00	1459,00
1289,00	1611,16
1290,00	1447,65
1291,00	1416,35
1292,00	1458,54
1293,00	1427,04
1294,00	1415,37
1295,00	1451,73
1296,00	1585,06
1297,00	1519,21
1298,00	1619,85
1299,00	1787,65
1300,00	2157,96
1301,00	2149,13
1302,00	2192,36
1303,00	2242,50
1304,00	2279,92
1305,00	1909,64
1306,00	1730,23
1307,00	1651,31
1308,00	1606,89
1309,00	1480,01
1310,00	1454,81
1311,00	1456,33
1312,00	1436,62
1313,00	1423,45
1314,00	1448,46
1315,00	1557,03
1316,00	1391,34
1317,00	1395,22
1318,00	1449,17
1319,00	1462,98
1320,00	1432,19
1321,00	1487,99
1322,00	1979,81
1323,00	1419,71
1324,00	1409,75
1325,00	1408,10
1326,00	1404,77
1327,00	1373,49
1328,00	1461,37
1329,00	1396,16
1330,00	1432,49
1331,00	1460,32
1332,00	1403,21
1333,00	1424,50
1334,00	1388,48
1335,00	1476,72
1336,00	1467,28
1337,00	1489,45
1338,00	1439,15
1339,00	1394,16
1340,00	1438,24
1341,00	1473,99
1342,00	1470,78
1343,00	1576,80
1344,00	1508,93
1345,00	1412,76
1346,00	1433,11
1347,00	1468,78
1348,00	1457,11
1349,00	1415,24
1350,00	1613,57
1351,00	1572,62
1352,00	1490,47
1353,00	1473,73
1354,00	1750,36
1355,00	1421,70
1356,00	1384,83
1357,00	1398,05
1358,00	1461,15
1359,00	1488,44
1360,00	1431,13
1361,00	1395,60
1362,00	1415,54
1363,00	1431,27
1364,00	1475,52
1365,00	1523,24
1366,00	1393,59
1367,00	1378,00
1368,00	1414,67
1369,00	1403,59
1370,00	1472,62
1371,00	1405,91
1372,00	1381,54
1373,00	1554,18
1374,00	1418,36
1375,00	1435,70
1376,00	1466,80
1377,00	1474,43
1378,00	1523,72
1379,00	1457,78
1380,00	1681,41
1381,00	1418,46
1382,00	1397,16
1383,00	1569,03
1384,00	1422,92
1385,00	1475,04
1386,00	1517,10
1387,00	1526,15
1388,00	1428,55
1389,00	1499,77
1390,00	1397,92
1391,00	1415,95
1392,00	1558,27
1393,00	1471,42
1394,00	1443,80
1395,00	1421,67
1396,00	1535,97
1397,00	1454,69
1398,00	1743,36
1399,00	2050,00
1400,00	1865,36
1401,00	1982,79
1402,00	2264,91
1403,00	1940,21
1404,00	1943,07
1405,00	1855,55
1406,00	1705,30
1407,00	1607,04
1408,00	1566,61
1409,00	1498,99
1410,00	1444,47
1411,00	3206,49
1412,00	1557,58
1413,00	1400,20
1414,00	1381,91
1415,00	1407,74
1416,00	1374,60
1417,00	1381,03
1418,00	1460,73
1419,00	1475,68
1420,00	1395,35
1421,00	1388,48
1422,00	1367,42
1423,00	1360,82
1424,00	1437,29
1425,00	1368,45
1426,00	1447,51
1427,00	1441,94
1428,00	1372,24
1429,00	1425,85
1430,00	1375,17
1431,00	1388,81
1432,00	1447,87
1433,00	1409,67
1434,00	1465,77
1435,00	1442,92
1436,00	1410,89
1437,00	1497,07
1438,00	1408,02
1439,00	1406,18
1440,00	1421,83
1441,00	1408,47
1442,00	1400,40
1443,00	1387,69
1444,00	1416,09
1445,00	1410,41
1446,00	1499,67
1447,00	1456,72
1448,00	1488,33
1449,00	1443,67
1450,00	1451,83
1451,00	1434,67
1452,00	1580,00
1453,00	1517,88
1454,00	1591,25
1455,00	1586,85
1456,00	1508,77
1457,00	1621,27
1458,00	1557,33
1459,00	1454,88
1460,00	1439,37
1461,00	1457,72
1462,00	1425,85
1463,00	1452,69
1464,00	1407,68
1465,00	1427,24
1466,00	1394,34
1467,00	1466,24
1468,00	1405,76
1469,00	1393,84
1470,00	1416,37
1471,00	1461,45
1472,00	1420,56
1473,00	1392,60
1474,00	1426,31
1475,00	1392,60
1476,00	1588,63
1477,00	1477,22
1478,00	1831,87
1479,00	1569,00
1480,00	1443,03
1481,00	1406,71
1482,00	1417,90
1483,00	1406,27
1484,00	1495,40
1485,00	1497,24
1486,00	1411,25
1487,00	1475,29
1488,00	1475,66
1489,00	1445,37
1490,00	1458,15
1491,00	1447,36
1492,00	1420,24
1493,00	1393,77
1494,00	1382,74
1495,00	1468,25
1496,00	1400,36
1497,00	1526,15
1498,00	1508,94
1499,00	1470,73
1500,00	1446,69
1501,00	1450,29
1502,00	1404,54
1503,00	1589,89
1504,00	1454,16
1505,00	1577,35
1506,00	1546,94
1507,00	1600,49
1508,00	1677,10
1509,00	1635,68
1510,00	1653,10
1511,00	1753,98
1512,00	1632,98
1513,00	1559,55
1514,00	1522,28
1515,00	1497,13
1516,00	1978,74
1517,00	1570,67
1518,00	1444,89
1519,00	1435,19
1520,00	1476,80
1521,00	1402,37
1522,00	1450,55
1523,00	1416,10
1524,00	1408,80
1525,00	1380,09
1526,00	1394,77
1527,00	1375,00
1528,00	1440,38
1529,00	1367,64
1530,00	1374,36
1531,00	1404,38
1532,00	1392,37
1533,00	1354,66
1534,00	1420,41
1535,00	1370,46
1536,00	1439,07
1537,00	1473,62
1538,00	1466,86
1539,00	1481,43
1540,00	1446,75
1541,00	1442,16
1542,00	1394,65
1543,00	1406,37
1544,00	1468,05
1545,00	1436,85
1546,00	1410,02
1547,00	1434,62
1548,00	1411,41
1549,00	1397,03
1550,00	1408,24
1551,00	1439,73
1552,00	1417,51
1553,00	1407,91
1554,00	1417,63
1555,00	1404,74
1556,00	1409,75
1557,00	1477,77
1558,00	1434,76
1559,00	1412,48
1560,00	1438,59
1561,00	1463,37
1562,00	1620,06
1563,00	1577,15
1564,00	1533,02
1565,00	1582,62
1566,00	1616,37
1567,00	1642,23
1568,00	1552,32
1569,00	1503,97
1570,00	1479,09
1571,00	1488,41
1572,00	1496,84
1573,00	1449,67
1574,00	1529,34
1575,00	1401,45
1576,00	1371,02
1577,00	1380,26
1578,00	1461,96
1579,00	1406,88
1580,00	1392,14
1581,00	1410,42
1582,00	1378,76
1583,00	1528,01
1584,00	1422,80
1585,00	1372,02
1586,00	1431,08
1587,00	1450,01
1588,00	1490,83
1589,00	1405,46
1590,00	1441,40
1591,00	1417,38
1592,00	1553,80
1593,00	1382,87
1594,00	1423,47
1595,00	1377,51
1596,00	1405,09
1597,00	1388,16
1598,00	1392,01
1599,00	1414,03
1600,00	1360,83
1601,00	1455,83
1602,00	1493,29
1603,00	1442,86
1604,00	1399,30
1605,00	1527,26
1606,00	1379,78
1607,00	1400,62
1608,00	1396,88
1609,00	1412,08
1610,00	1373,91
1611,00	1492,73
1612,00	1404,02
1613,00	1445,20
1614,00	1387,00
1615,00	1405,23
1616,00	1472,54
1617,00	1446,97
1618,00	1491,05
1619,00	1480,26
1620,00	1578,72
1621,00	1546,53
1622,00	1524,25
1623,00	1616,44
1624,00	1592,05
1625,00	1524,05
1626,00	1628,11
1627,00	1478,52
1628,00	1455,59
1629,00	1947,86
1630,00	1475,58
1631,00	1405,74
1632,00	1449,57
1633,00	1414,85
1634,00	1427,73
1635,00	1407,41
1636,00	1409,66
1637,00	1408,82
1638,00	1380,39
1639,00	1380,00
1640,00	1439,43
1641,00	1499,74
1642,00	1495,56
1643,00	1391,31
1644,00	1569,38
1645,00	1460,26
1646,00	1409,97
1647,00	1471,23
1648,00	1427,71
1649,00	1411,84
1650,00	1581,13
1651,00	1499,43
1652,00	1384,96
1653,00	1402,46
1654,00	1414,76
1655,00	1411,67
1656,00	1398,50
1657,00	1517,46
1658,00	1394,19
1659,00	1465,57
1660,00	1458,12
1661,00	1479,23
1662,00	1435,04
1663,00	1465,18
1664,00	1450,59
1665,00	1400,34
1666,00	1443,05
1667,00	1564,23
1668,00	1403,87
1669,00	1409,38
1670,00	1466,81
1671,00	1400,45
1672,00	1379,14
1673,00	1468,42
1674,00	1457,39
1675,00	1465,33
1676,00	1463,97
1677,00	1489,24
1678,00	1569,59
1679,00	1584,20
1680,00	1604,48
1681,00	1624,92
1682,00	1788,79
1683,00	1654,52
1684,00	1663,20
1685,00	1588,13
1686,00	1463,19
1687,00	1443,66
1688,00	1505,46
1689,00	1399,00
1690,00	1399,30
1691,00	1401,12
1692,00	1396,49
1693,00	1523,24
1694,00	1399,27
1695,00	1428,49
1696,00	1418,68
1697,00	1430,99
1698,00	1388,94
1699,00	1437,29
1700,00	1431,32
1701,00	1486,30
1702,00	1396,39
1703,00	1379,89
1704,00	1392,67
1705,00	1448,15
1706,00	1387,88
1707,00	1389,83
1708,00	1393,26
1709,00	1458,64
1710,00	1419,89
1711,00	1385,78
1712,00	1412,83
1713,00	1550,06
1714,00	1448,78
1715,00	1422,66
1716,00	1520,38
1717,00	1420,69
1718,00	1528,10
1719,00	1489,20
1720,00	1401,53
1721,00	1442,86
1722,00	1400,09
1723,00	1475,61
1724,00	1411,19
1725,00	1431,67
1726,00	1437,10
1727,00	1396,94
1728,00	1507,55
1729,00	1383,57
1730,00	1567,35
1731,00	1464,72
1732,00	1577,55
1733,00	1455,97
1734,00	1374,74
1735,00	1422,67
1736,00	1402,96
1737,00	1377,31
1738,00	1417,52
1739,00	1486,74
1740,00	1488,75
1741,00	1610,83
1742,00	1473,77
1743,00	1429,46
1744,00	1418,41
1745,00	1418,29
1746,00	1427,62
1747,00	1434,83
1748,00	1469,14
1749,00	1562,45
1750,00	1474,55
1751,00	1604,94
1752,00	1412,25
1753,00	1383,58
1754,00	1410,16
1755,00	1432,17
1756,00	1410,80
1757,00	1522,42
1758,00	1398,56
1759,00	1385,29
1760,00	1396,02
1761,00	1448,65
1762,00	1426,34
1763,00	1380,68
1764,00	1458,17
1765,00	1396,63
1766,00	1387,66
1767,00	1380,70
1768,00	1394,04
1769,00	1441,35
1770,00	1385,94
1771,00	1407,60
1772,00	1556,91
1773,00	1397,66
1774,00	1368,17
1775,00	1393,95
1776,00	1409,36
1777,00	1359,65
1778,00	1389,86
1779,00	1377,03
1780,00	1367,86
1781,00	1373,15
1782,00	1386,25
1783,00	1426,10
1784,00	1426,10
1785,00	1416,90
1786,00	1446,06
1787,00	1394,94
1788,00	1443,14
1789,00	1446,83
1790,00	1505,93
1791,00	1402,67
1792,00	1452,44
1793,00	1405,94
1794,00	1380,48
1795,00	1397,61
1796,00	1383,55
1797,00	1362,96
1798,00	1412,23
1799,00	1397,38
1800,00	1494,00
1801,00	1482,20
1802,00	1602,44
1803,00	1538,47
1804,00	1582,31
1805,00	1564,27
1806,00	1604,61
1807,00	1574,71
1808,00	1511,17
1809,00	1524,66
1810,00	1542,62
1811,00	1480,93
1812,00	1417,97
1813,00	1414,84
1814,00	1426,85
1815,00	1461,31
1816,00	1614,89
1817,00	1415,20
1818,00	1815,80
1819,00	1510,64
1820,00	1485,12
1821,00	1389,84
1822,00	1364,36
1823,00	1383,85
1824,00	1427,40
1825,00	1544,68
1826,00	1386,67
1827,00	1527,32
1828,00	1569,61
1829,00	1423,09
1830,00	1463,30
1831,00	1386,74
1832,00	1365,50
1833,00	1353,11
1834,00	1381,48
1835,00	1423,03
1836,00	1368,32
1837,00	1366,87
1838,00	1438,99
1839,00	1518,12
1840,00	1597,01
1841,00	1447,75
1842,00	1453,63
1843,00	1463,27
1844,00	1562,56
1845,00	1456,45
1846,00	1381,56
1847,00	1397,96
1848,00	1438,81
1849,00	1411,75
1850,00	1438,85
1851,00	1463,47
1852,00	1387,22
1853,00	1390,09
1854,00	1397,33
1855,00	1377,92
1856,00	1377,53
1857,00	1396,11
1858,00	1545,83
1859,00	1375,99
1860,00	1426,76
1861,00	1730,11
1862,00	1406,46
1863,00	1406,18
1864,00	1378,98
1865,00	1415,60
1866,00	1462,37
1867,00	1383,77
1868,00	1424,57
1869,00	1374,38
1870,00	1410,39
1871,00	1372,96
1872,00	1428,05
1873,00	1420,05
1874,00	1447,20
1875,00	1405,32
1876,00	1372,91
1877,00	1419,61
1878,00	1502,78
1879,00	1470,25
1880,00	1365,02
1881,00	1436,00
1882,00	1404,45
1883,00	1396,91
1884,00	1383,33
1885,00	1420,78
1886,00	1430,05
1887,00	1366,48
1888,00	1384,16
1889,00	1428,15
1890,00	1365,53
1891,00	1456,37
1892,00	1500,03
1893,00	1403,01
1894,00	1455,92
1895,00	1427,96
1896,00	1480,47
1897,00	1615,77
1898,00	1402,06
1899,00	1417,30
1900,00	1404,96
1901,00	1431,19
1902,00	1409,00
1903,00	1519,65
1904,00	1438,13
1905,00	1750,05
1906,00	1398,97
1907,00	1378,25
1908,00	1731,40
1909,00	1400,69
1910,00	1390,65
1911,00	1427,13
1912,00	1444,55
1913,00	1530,49
1914,00	1394,60
1915,00	1400,95
1916,00	1447,93
1917,00	1433,59
1918,00	1423,22
1919,00	1429,19
1920,00	1384,05
1921,00	1491,30
1922,00	1411,98
1923,00	1422,23
1924,00	1438,90
1925,00	1384,05
1926,00	1427,41
1927,00	1467,45
1928,00	1500,06
1929,00	1452,43
1930,00	1389,31
1931,00	1468,03
1932,00	1610,16
1933,00	1462,04
1934,00	1437,42
1935,00	1458,59
1936,00	1493,71
1937,00	1437,99
1938,00	1498,13
1939,00	1481,11
1940,00	1643,56
1941,00	1450,66
1942,00	1444,91
1943,00	1431,89
1944,00	1460,93
1945,00	1410,77
1946,00	1373,21
1947,00	1373,74
1948,00	1574,42
1949,00	1384,21
1950,00	1449,54
1951,00	1388,48
1952,00	1397,69
1953,00	1368,18
1954,00	1453,11
1955,00	1398,88
1956,00	1398,66
1957,00	1431,61
1958,00	1363,60
1959,00	1407,82
1960,00	1370,09
1961,00	1473,94
1962,00	1364,74
1963,00	1454,39
1964,00	1373,63
1965,00	1433,73
1966,00	1377,84
1967,00	1476,50
1968,00	1382,21
1969,00	1364,30
1970,00	1422,81
1971,00	1466,86
1972,00	1422,56
1973,00	1445,53
1974,00	1431,14
1975,00	1446,28
1976,00	1443,41
1977,00	1419,58
1978,00	1416,46
1979,00	1426,67
1980,00	1764,05
1981,00	1433,69
1982,00	1374,07
1983,00	1410,63
1984,00	1419,47
1985,00	1516,37
1986,00	1376,66
1987,00	1374,97
1988,00	1394,15
1989,00	1418,61
1990,00	1525,28
1991,00	1451,65
1992,00	1466,77
1993,00	1629,43
1994,00	1438,26
1995,00	1371,79
1996,00	1430,18
1997,00	1416,73
1998,00	1435,78
1999,00	1363,72
2000,00	1357,60
2001,00	1403,14
2002,00	1505,18
2003,00	1355,92
2004,00	1443,53
2005,00	1369,01
2006,00	1535,64
2007,00	1398,72
2008,00	1363,36
2009,00	1518,02
2010,00	1375,38
2011,00	1357,45
2012,00	1405,27
2013,00	1384,72
2014,00	1404,21
2015,00	1377,30
2016,00	1370,70
2017,00	1397,49
2018,00	1408,99
2019,00	1371,83
2020,00	1366,56
2021,00	1435,45
2022,00	1420,97
2023,00	1404,96
2024,00	1382,88
2025,00	1489,45
2026,00	1386,02
2027,00	1367,98
2028,00	1448,34
2029,00	1382,45
2030,00	1370,79
2031,00	1381,48
2032,00	1361,33
2033,00	1415,21
2034,00	1512,16
2035,00	1430,36
2036,00	1421,47
2037,00	1395,08
2038,00	1400,70
2039,00	1402,29
2040,00	1431,44
2041,00	1416,57
2042,00	1368,71
2043,00	1408,92
2044,00	1440,51
2045,00	1375,88
2046,00	1375,88
2047,00	1375,88
>>>>>End Processed Spectral Data<<<<<
